#         Lambda    Transmission
          61511.5000            0.000071
          61584.6016            0.000124
          61657.8008            0.000188
          61731.1992            0.000206
          61804.8008            0.000180
          61878.6016            0.000147
          61952.5000            0.000096
          62026.6016            0.000050
          62100.8984            0.000083
          62175.3008            0.000123
          62250.0000            0.000147
          62324.8008            0.000198
          62399.8008            0.000228
          62475.0000            0.000231
          62550.3008            0.000232
          62625.8984            0.000287
          62701.6016            0.000471
          62777.5000            0.000768
          62853.6016            0.001189
          62929.8984            0.002016
          63006.3984            0.003362
          63083.0000            0.005239
          63159.8008            0.007906
          63236.8984            0.011740
          63314.1016            0.016260
          63391.5000            0.021640
          63469.1016            0.028570
          63546.8984            0.036160
          63624.8008            0.043950
          63703.0000            0.053290
          63781.3008            0.062440
          63859.8984            0.073090
          63938.6016            0.085940
          64017.6016            0.100400
          64096.6992            0.112900
          64176.0000            0.125500
          64255.6016            0.137800
          64335.3008            0.148500
          64415.1992            0.158900
          64495.3008            0.167100
          64575.6016            0.174000
          64656.1016            0.179300
          64736.8984            0.184800
          64817.8008            0.189800
          64898.8984            0.197100
          64980.1992            0.204900
          65061.8008            0.211700
          65143.5000            0.217000
          65225.3984            0.219900
          65307.6016            0.221500
          65390.0000            0.224000
          65472.5000            0.227200
          65555.2969            0.229500
          65638.2969            0.231300
          65721.5000            0.232600
          65804.8984            0.232800
          65888.5000            0.232900
          65972.2969            0.233500
          66056.2969            0.233100
          66140.6016            0.232500
          66225.1016            0.230100
          66309.7969            0.228000
          66394.7031            0.226100
          66479.7969            0.223700
          66565.1016            0.222600
          66650.7031            0.221600
          66736.5000            0.222000
          66822.5000            0.223600
          66908.7031            0.226200
          66995.1016            0.228600
          67081.7969            0.231000
          67168.7031            0.233000
          67255.7969            0.234700
          67343.2031            0.236000
          67430.7031            0.237200
          67518.5000            0.237800
          67606.6016            0.239300
          67694.7969            0.240600
          67783.2969            0.241800
          67872.0000            0.242900
          67961.0000            0.244000
          68050.2031            0.244800
          68139.6016            0.246100
          68229.2969            0.247100
          68319.1016            0.248100
          68409.2969            0.248500
          68499.6016            0.249100
          68590.2969            0.249400
          68681.1016            0.249200
          68772.2031            0.248800
          68863.5000            0.248300
          68955.1016            0.247700
          69046.8984            0.247300
          69139.0000            0.247600
          69231.2969            0.248500
          69323.7969            0.249200
          69416.6016            0.249100
          69509.7031            0.248800
          69603.0000            0.247900
          69696.5000            0.246900
          69790.3984            0.245000
          69884.3984            0.243400
          69978.7031            0.242400
          70073.2969            0.241800
          70168.1016            0.241800
          70263.2031            0.241400
          70358.5000            0.241000
          70454.1016            0.240900
          70550.0000            0.240300
          70646.1016            0.239600
          70742.5000            0.239200
          70839.1016            0.239600
          70936.0000            0.240300
          71033.2031            0.241100
          71130.6016            0.241800
          71228.2969            0.242200
          71326.2969            0.242100
          71424.6016            0.241700
          71523.1016            0.241300
          71621.8984            0.240700
          71720.8984            0.240800
          71820.2969            0.241800
          71919.8984            0.243300
          72019.7969            0.244700
          72119.8984            0.246000
          72220.3984            0.247700
          72321.1016            0.249300
          72422.1016            0.249700
          72523.3984            0.249400
          72625.0000            0.248300
          72726.7969            0.246200
          72829.0000            0.243800
          72931.3984            0.242700
          73034.1016            0.242000
          73137.1016            0.242800
          73240.3984            0.244200
          73344.0000            0.246800
          73447.8984            0.249500
          73552.1016            0.252600
          73656.6016            0.254300
          73761.3984            0.255600
          73866.3984            0.256300
          73971.7969            0.255600
          74077.5000            0.254700
          74183.5000            0.253700
          74289.7031            0.253000
          74396.2969            0.253900
          74503.2031            0.255900
          74610.3984            0.259100
          74717.8984            0.262900
          74825.7031            0.266500
          74933.8984            0.270000
          75042.2969            0.272800
          75151.1016            0.275500
          75260.1016            0.277800
          75369.5000            0.279600
          75479.2031            0.280900
          75589.2969            0.282200
          75699.6016            0.283000
          75810.2969            0.283100
          75921.2969            0.282600
          76032.6016            0.281600
          76144.2031            0.281300
          76256.2031            0.281400
          76368.5000            0.282100
          76481.2031            0.283700
          76594.1016            0.285700
          76707.3984            0.287200
          76821.1016            0.288100
          76935.1016            0.288300
          77049.3984            0.287200
          77164.0000            0.286600
          77279.0000            0.285700
          77394.3984            0.285900
          77510.1016            0.286700
          77626.1016            0.287900
          77742.5000            0.289100
          77859.2031            0.290600
          77976.2969            0.292300
          78093.7031            0.293900
          78211.5000            0.295300
          78329.7031            0.297100
          78448.2031            0.299000
          78567.0000            0.300700
          78686.2031            0.301600
          78805.7969            0.302200
          78925.7969            0.301400
          79046.1016            0.300200
          79166.7969            0.298000
          79287.7969            0.296100
          79409.2031            0.295200
          79531.0000            0.294800
          79653.2031            0.295700
          79775.7031            0.296700
          79898.7031            0.297700
          80022.0000            0.299000
          80145.6016            0.300200
          80269.7031            0.301300
          80394.2031            0.302400
          80519.0000            0.303200
          80644.2031            0.305000
          80769.7969            0.306100
          80895.7969            0.308000
          81022.2031            0.308900
          81149.0000            0.309000
          81276.2031            0.309100
          81403.7969            0.308600
          81531.7969            0.308100
          81660.2031            0.307900
          81789.0000            0.308500
          81918.2031            0.309500
          82047.7969            0.311300
          82177.8984            0.312700
          82308.2969            0.313700
          82439.2031            0.313700
          82570.3984            0.313700
          82702.1016            0.313400
          82834.2031            0.312800
          82966.7969            0.312500
          83099.7031            0.312800
          83233.1016            0.312500
          83366.8984            0.311900
          83501.2031            0.310800
          83635.8984            0.309900
          83771.0000            0.309400
          83906.5000            0.309500
          84042.5000            0.310100
          84178.8984            0.311700
          84315.7969            0.313000
          84453.1016            0.313600
          84590.8984            0.314000
          84729.1016            0.313700
          84867.7969            0.312400
          85006.8984            0.311300
          85146.5000            0.310900
          85286.6016            0.311200
          85427.1016            0.311200
          85568.0000            0.311700
          85709.5000            0.312600
          85851.3984            0.312200
          85993.7969            0.312100
          86136.6016            0.310200
          86279.8984            0.308500
          86423.7031            0.306000
          86568.0000            0.302600
          86712.7969            0.298100
          86858.0000            0.294300
          87003.7031            0.290900
          87150.0000            0.289200
          87296.7031            0.289800
          87443.8984            0.291600
          87591.6016            0.293800
          87739.7969            0.295800
          87888.5000            0.297300
          88037.7031            0.298400
          88187.5000            0.298100
          88337.7031            0.296500
          88488.5000            0.293900
          88639.7031            0.291400
          88791.5000            0.288900
          88943.7969            0.287500
          89096.6016            0.285700
          89250.0000            0.284100
          89403.7969            0.282700
          89558.2969            0.280600
          89713.2031            0.278100
          89868.7031            0.275600
          90024.7031            0.273700
          90181.2969            0.271300
          90338.3984            0.268600
          90496.0000            0.265900
          90654.2969            0.264100
          90813.0000            0.261600
          90972.2969            0.257800
          91132.2031            0.253600
          91292.7031            0.249700
          91453.7031            0.242900
          91615.2031            0.234500
          91777.3984            0.224200
          91940.1016            0.214100
          92103.3984            0.201500
          92267.2969            0.189800
          92431.7969            0.177400
          92596.7969            0.165300
          92762.5000            0.153400
          92928.7031            0.143700
          93095.6016            0.133400
          93263.0000            0.123500
          93431.0000            0.113200
          93599.7031            0.102200
          93769.0000            0.090730
          93938.7969            0.079150
          94109.2969            0.067830
          94280.3984            0.056070
          94452.2031            0.045780
          94624.5000            0.036040
          94797.5000            0.027390
          94971.1016            0.020150
          95145.3984            0.014450
          95320.2969            0.010210
          95495.7969            0.007234
          95672.0000            0.004910
          95848.8984            0.003291
          96026.3984            0.002300
          96204.5000            0.001616
          96383.2969            0.001144
          96562.7969            0.000818
          96743.0000            0.000510
          96923.7969            0.000279
          97105.2969            0.000166
          97287.5000            0.000118
          97470.3984            0.000090
          97653.8984            0.000115
          97838.2031            0.000134
          98023.1016            0.000066
          98208.7969            0.000048
          98395.1016            0.000095
          98582.2031            0.000102
          98770.0000            0.000164
          98958.5000            0.000299
          99147.7031            0.000334
          99337.6016            0.000325
          99528.2969            0.000320
          99719.7031            0.000276
          99911.7969            0.000291
         100105.0000            0.000274
         100298.0000            0.000161
         100493.0000            0.000157
         100688.0000            0.000208
         100884.0000            0.000188
         101080.0000            0.000145
         101278.0000            0.000160
         101476.0000            0.000233
         101675.0000            0.000289
         101875.0000            0.000264
         102075.0000            0.000182
         102277.0000            0.000088
         102479.0000            0.000047
         102682.0000            0.000114
         102885.0000            0.000213
         103090.0000            0.000245
         103295.0000            0.000214
         103501.0000            0.000196
         103708.0000            0.000202
         103916.0000            0.000230
         104125.0000            0.000273
         104334.0000            0.000271
         104545.0000            0.000259
         104756.0000            0.000252
         104968.0000            0.000190
